{
  "resourceType" : "Bundle",
  "id" : "db626917-8cc2-4754-a1ef-59f2e78aece4",
  "type" : "transaction",
  "entry" : [ {
    "fullUrl" : "Patient/70566273-0951-45e1-91a7-be8387f8edd0",
    "resource" : {
      "resourceType" : "Patient",
      "id" : "70566273-0951-45e1-91a7-be8387f8edd0",
      "extension" : [ {
        "url" : "https://bbmri.crc/fhir/StructureDefinition/PatientAge",
        "valueString" : "35"
      } ],
      "identifier" : [ {
        "system" : "http://www.bbmri-eric.eu/",
        "value" : "patient-bbmri-eric:factID:EU_BBMRI-ERIC:collection:CRC-Cohort:3-1"
      } ],
      "gender" : "female",
      "birthDate" : "1983-01-01"
    },
    "request" : {
      "method" : "PUT",
      "url" : "Patient/70566273-0951-45e1-91a7-be8387f8edd0"
    }
  }, {
    "fullUrl" : "Specimen/5f074ae6-0f8f-4ea7-86af-28b5e40ebae8",
    "resource" : {
      "resourceType" : "Specimen",
      "id" : "5f074ae6-0f8f-4ea7-86af-28b5e40ebae8",
      "extension" : [ {
        "url" : "https://fhir.bbmri.de/StructureDefinition/Custodian",
        "valueReference" : {
          "reference" : "Organization/ba0ce8ec-49e2-4581-b7b7-a4f1fc03acce"
        }
      } ],
      "identifier" : [ {
        "system" : "http://www.bbmri-eric.eu/",
        "value" : "1"
      } ],
      "type" : {
        "text" : "TISSUE_PARAFFIN_EMBEDDED"
      },
      "subject" : {
        "reference" : "Patient/70566273-0951-45e1-91a7-be8387f8edd0"
      },
      "collection" : {
        "collectedDateTime" : "2018"
      }
    },
    "request" : {
      "method" : "PUT",
      "url" : "Specimen/5f074ae6-0f8f-4ea7-86af-28b5e40ebae8"
    }
  }, {
    "fullUrl" : "Organization/ba0ce8ec-49e2-4581-b7b7-a4f1fc03acce",
    "resource" : {
      "resourceType" : "Organization",
      "id" : "ba0ce8ec-49e2-4581-b7b7-a4f1fc03acce",
      "meta" : {
        "profile" : [ "https://fhir.bbmri.de/StructureDefinition/Collection" ]
      },
      "extension" : [ {
        "url" : "https://fhir.bbmri.de/StructureDefinition/CollectionType",
        "valueCodeableConcept" : {
          "coding" : [ {
            "system" : "https://fhir.bbmri.de/CodeSystem/CollectionType",
            "code" : "SAMPLE"
          } ]
        }
      }, {
        "url" : "https://fhir.bbmri.de/StructureDefinition/DataCategory",
        "valueCodeableConcept" : {
          "coding" : [ {
            "system" : "https://fhir.bbmri.de/CodeSystem/DataCategory",
            "code" : "BIOLOGICAL_SAMPLES"
          } ]
        }
      } ],
      "identifier" : [ {
        "system" : "http://www.bbmri-eric.eu/",
        "value" : "bbmri-eric:ID:EU_BBMRI-ERIC:collection:CRC-Cohort"
      } ],
      "partOf" : {
        "reference" : "Organization/76062734-cca3-4aaf-bd37-c5d03ca004b2"
      }
    },
    "request" : {
      "method" : "PUT",
      "url" : "Organization/ba0ce8ec-49e2-4581-b7b7-a4f1fc03acce"
    }
  }, {
    "fullUrl" : "Organization/76062734-cca3-4aaf-bd37-c5d03ca004b2",
    "resource" : {
      "resourceType" : "Organization",
      "id" : "76062734-cca3-4aaf-bd37-c5d03ca004b2",
      "meta" : {
        "profile" : [ "https://fhir.bbmri.de/StructureDefinition/Biobank" ]
      },
      "identifier" : [ {
        "system" : "http://www.bbmri-eric.eu/",
        "value" : "bbmri-eric:ID:EU_BBMRI-ERIC"
      } ]
    },
    "request" : {
      "method" : "PUT",
      "url" : "Organization/76062734-cca3-4aaf-bd37-c5d03ca004b2"
    }
  }, {
    "fullUrl" : "Condition/623ce2f5-4a6a-431a-be0a-9325aa1f1086",
    "resource" : {
      "resourceType" : "Condition",
      "id" : "623ce2f5-4a6a-431a-be0a-9325aa1f1086",
      "meta" : {
        "profile" : [ "https://fhir.bbmri.de/StructureDefinition/Condition" ]
      },
      "identifier" : [ {
        "system" : "http://www.bbmri-eric.eu/",
        "value" : "patient-bbmri-eric:factID:EU_BBMRI-ERIC:collection:CRC-Cohort:3-1"
      } ],
      "code" : {
        "coding" : [ {
          "system" : "http://hl7.org/fhir/sid/icd-10",
          "version" : "2016",
          "code" : "C18.0"
        } ]
      },
      "subject" : {
        "reference" : "Patient/70566273-0951-45e1-91a7-be8387f8edd0"
      }
    },
    "request" : {
      "method" : "PUT",
      "url" : "Condition/623ce2f5-4a6a-431a-be0a-9325aa1f1086"
    }
  } ]
}